circle_amount,file_name,size,prompt,correct_answer,correct_key_resp,condition_size,condition_lined,practice_section.thisRepN,practice_section.thisTrialN,practice_section.thisN,practice_section.thisIndex,practice_trials.thisRepN,practice_trials.thisTrialN,practice_trials.thisN,practice_trials.thisIndex,trials_low.thisRepN,trials_low.thisTrialN,trials_low.thisN,trials_low.thisIndex,trials_high.thisRepN,trials_high.thisTrialN,trials_high.thisN,trials_high.thisIndex,image_2.started,image_2.stopped,key_resp_4.keys,key_resp_4.rt,key_resp_4.started,key_resp_4.stopped,cross_2.started,cross_2.stopped,practice_low.started,practice_low.stopped,text_2.started,text_2.stopped,key_resp_2.keys,key_resp_2.rt,key_resp_2.started,key_resp_2.stopped,yes_no_prac.started,yes_no_prac.stopped,text_3.started,text_3.stopped,text_4.started,text_4.stopped,key_resp_3.keys,key_resp_3.rt,key_resp_3.started,key_resp_3.stopped,text_5.started,text_5.stopped,text_6.started,text_6.stopped,cross.started,cross.stopped,text.started,text.stopped,image.started,image.stopped,key_resp.keys,key_resp.rt,key_resp.started,key_resp.stopped,participant,session,date,expName,psychopyVersion,frameRate
,,,,,,,,,,,,,,,,,,,,,,,,43.6517068,None,z,144.0644406,43.6517068,None,,,,,,,,,,,,,,,,,,,,,,,,,,,,,,,,,,,santtu,1,2021_Nov_26_1449,project_circles,2021.2.3,59.95674719
3,3_circles_notlined.png,"(0.5, 0.5)",There were 3 circles,Yes,z,,,0,0,0,0,0,0,0,2,,,,,,,,,,,,,,,187.9767784,188.9765962,189.4442058,190.4599483,190.9491652,191.9594567,z,1.1717656,190.9491652,None,190.9491652,None,192.1722606,None,,,,,,,,,,,,,,,,,,,,,santtu,1,2021_Nov_26_1449,project_circles,2021.2.3,59.95674719
4,4_circles_lined.png,"(0.5, 0.5)",There were 4 circles,Yes,z,,,0,0,0,0,0,1,1,4,,,,,,,,,,,,,,,193.2275714,194.2432316,194.7097626,195.7098289,196.2247923,None,z,0.7248398,196.2247923,None,196.2247923,None,196.9709342,None,,,,,,,,,,,,,,,,,,,,,santtu,1,2021_Nov_26_1449,project_circles,2021.2.3,59.95674719
4,4_circles_lined.png,"(0.5, 0.5)",There were 5 circles,No,m,,,0,0,0,0,0,2,2,5,,,,,,,,,,,,,,,198.0326285,199.0434566,199.5271845,200.5275052,201.0289584,None,m,0.8009081,201.0289584,None,201.0289584,None,201.8500433,None,,,,,,,,,,,,,,,,,,,,,santtu,1,2021_Nov_26_1449,project_circles,2021.2.3,59.95674719
2,2_circles_lined.png,"(0.5, 0.25)",There were 2 circles,Yes,z,,,0,0,0,0,0,3,3,0,,,,,,,,,,,,,,,202.9081341,203.9097481,204.4104676,205.4105865,205.901253,None,z,0.6421855,205.901253,None,205.901253,None,206.5702683,None,,,,,,,,,,,,,,,,,,,,,santtu,1,2021_Nov_26_1449,project_circles,2021.2.3,59.95674719
2,2_circles_lined.png,"(0.5, 0.25)",There were 3 circles,No,m,,,0,0,0,0,0,4,4,1,,,,,,,,,,,,,,,207.6052207,208.6093336,209.0931456,210.0936374,210.6007245,None,m,0.9095117,210.6007245,None,210.6007245,None,211.5301221,None,,,,,,,,,,,,,,,,,,,,,santtu,1,2021_Nov_26_1449,project_circles,2021.2.3,59.95674719
3,3_circles_notlined.png,"(0.5, 0.5)",There were 4 circles,No,m,,,0,0,0,0,0,5,5,3,,,,,,,,,,,,,,,212.5896313,213.5928511,214.077288,215.077168,215.5779669,216.5907922,m,1.1581236,215.5779669,None,215.5779669,None,216.7638927,None,,,,,,,,,,,,,,,,,,,,,santtu,1,2021_Nov_26_1449,project_circles,2021.2.3,59.95674719
3,3_circles_lined.png,"(0.75, 0.25)",There were 4 circles,No,m,Low,Yes,0,0,0,0,,,,,0,0,0,7,,,,,,,,,,,,,,,,,,,,,,,,,217.8880342,None,z,42.7980134,217.8880342,None,None,None,None,None,260.8750992,261.8754665,263.358333,None,262.3591248,262.8593517,m,0.7332694,263.358333,None,santtu,1,2021_Nov_26_1449,project_circles,2021.2.3,59.95674719
4,4_circles_notlined.png,"(0.6, 0.5)",There were 5 circles,No,m,Low,No,0,0,0,0,,,,,0,1,1,27,,,,,,,,,,,,,,,,,,,,,,,,,,,,,,,,,,,264.2047028,265.2087203,266.6939482,None,265.6919717,266.1927165,m,0.9112689,266.6939482,None,santtu,1,2021_Nov_26_1449,project_circles,2021.2.3,59.95674719
5,5_circles_notlined.png,"(0.7, 0.5)",There were 5 circles,Yes,z,Low,No,0,0,0,0,,,,,0,2,2,29,,,,,,,,,,,,,,,,,,,,,,,,,,,,,,,,,,,267.7207149,268.7253333,270.2082533,None,269.2085932,269.7085942,z,0.87188,270.2082533,None,santtu,1,2021_Nov_26_1449,project_circles,2021.2.3,59.95674719
3,3_circles_lined.png,"(0.75, 0.25)",There were 2 circles,No,m,Low,Yes,0,0,0,0,,,,,0,3,3,6,,,,,,,,,,,,,,,,,,,,,,,,,,,,,,,,,,,271.1512779,272.1584629,273.6417319,None,272.6413795,273.1418052,m,0.7334499,273.6417319,None,santtu,1,2021_Nov_26_1449,project_circles,2021.2.3,59.95674719
2,2_circles_lined.png,"(0.5, 0.25)",There were 4 circles,No,m,Low,Yes,0,0,0,0,,,,,0,4,4,2,,,,,,,,,,,,,,,,,,,,,,,,,,,,,,,,,,,274.4313161,275.4417341,276.9248197,None,275.9251014,276.4261992,m,0.587103,276.9248197,None,santtu,1,2021_Nov_26_1449,project_circles,2021.2.3,59.95674719
4,4_circles_notlined.png,"(0.6, 0.5)",There were 4 circles,Yes,z,Low,No,0,0,0,0,,,,,0,5,5,25,,,,,,,,,,,,,,,,,,,,,,,,,,,,,,,,,,,277.5917789,278.5918063,280.0752717,None,279.0760293,279.5750932,z,0.7190531,280.0752717,None,santtu,1,2021_Nov_26_1449,project_circles,2021.2.3,59.95674719
5,5_circles_lined.png,"(0.75, 0.5)",There were 6 circles,No,m,Low,Yes,0,0,0,0,,,,,0,6,6,15,,,,,,,,,,,,,,,,,,,,,,,,,,,,,,,,,,,280.9169687,281.9254132,283.4078825,None,282.4083567,282.9092965,m,0.5226725,283.4078825,None,santtu,1,2021_Nov_26_1449,project_circles,2021.2.3,59.95674719
4,4_circles_lined.png,"(0.5, 0.5)",There were 3 circles,No,m,Low,Yes,0,0,0,0,,,,,0,7,7,10,,,,,,,,,,,,,,,,,,,,,,,,,,,,,,,,,,,284.0169233,285.0256411,286.4922606,None,285.4922895,285.9921863,m,0.6392492,286.4922606,None,santtu,1,2021_Nov_26_1449,project_circles,2021.2.3,59.95674719
2,2_circles_notlined.png,"(0.5, 0.5)",There were 2 circles,Yes,z,Low,No,0,0,0,0,,,,,0,8,8,16,,,,,,,,,,,,,,,,,,,,,,,,,,,,,,,,,,,287.2168661,288.2254997,289.7076326,None,288.7088289,289.2090117,z,0.5410676,289.7076326,None,santtu,1,2021_Nov_26_1449,project_circles,2021.2.3,59.95674719
2,2_circles_lined.png,"(0.5, 0.25)",There were 3 circles,No,m,Low,Yes,0,0,0,0,,,,,0,9,9,3,,,,,,,,,,,,,,,,,,,,,,,,,,,,,,,,,,,290.3094752,291.3255619,292.7909636,None,291.7915314,292.2925199,m,0.5895002,292.7909636,None,santtu,1,2021_Nov_26_1449,project_circles,2021.2.3,59.95674719
4,4_circles_lined.png,"(0.5, 0.5)",There were 4 circles,Yes,z,Low,Yes,0,0,0,0,,,,,0,10,10,9,,,,,,,,,,,,,,,,,,,,,,,,,,,,,,,,,,,293.4624971,294.4748531,295.9584043,None,294.9584824,295.4587875,z,0.4911738,295.9584043,None,santtu,1,2021_Nov_26_1449,project_circles,2021.2.3,59.95674719
4,4_circles_notlined.png,"(0.6, 0.5)",There were 4 circles,Yes,z,Low,No,0,0,0,0,,,,,0,11,11,24,,,,,,,,,,,,,,,,,,,,,,,,,,,,,,,,,,,296.5611885,297.575312,299.0415265,None,298.0591381,298.5753861,z,0.854367,299.0415265,None,santtu,1,2021_Nov_26_1449,project_circles,2021.2.3,59.95674719
2,2_circles_notlined.png,"(0.5, 0.5)",There were 3 circles,No,m,Low,No,0,0,0,0,,,,,0,12,12,19,,,,,,,,,,,,,,,,,,,,,,,,,,,,,,,,,,,299.9693363,300.9746929,302.4408649,None,301.4412085,301.9421462,m,0.6618586,302.4408649,None,santtu,1,2021_Nov_26_1449,project_circles,2021.2.3,59.95674719
2,2_circles_lined.png,"(0.5, 0.25)",There were 2 circles,Yes,z,Low,Yes,0,0,0,0,,,,,0,13,13,0,,,,,,,,,,,,,,,,,,,,,,,,,,,,,,,,,,,303.1611876,304.1746376,305.6415249,None,304.6420843,305.1413165,z,0.5761071,305.6415249,None,santtu,1,2021_Nov_26_1449,project_circles,2021.2.3,59.95674719
3,3_circles_notlined.png,"(0.5, 0.5)",There were 2 circles,No,m,Low,No,0,0,0,0,,,,,0,14,14,22,,,,,,,,,,,,,,,,,,,,,,,,,,,,,,,,,,,306.2723749,307.2749475,308.7582259,None,307.7579021,308.2579678,z,0.5285647,308.7582259,None,santtu,1,2021_Nov_26_1449,project_circles,2021.2.3,59.95674719
3,3_circles_notlined.png,"(0.5, 0.5)",There were 3 circles,Yes,z,Low,No,0,0,0,0,,,,,0,15,15,20,,,,,,,,,,,,,,,,,,,,,,,,,,,,,,,,,,,309.3579596,310.3578525,311.8411782,None,310.8408837,311.3411701,m,0.4745516,311.8411782,None,santtu,1,2021_Nov_26_1449,project_circles,2021.2.3,59.95674719
2,2_circles_notlined.png,"(0.5, 0.5)",There were 4 circles,No,m,Low,No,0,0,0,0,,,,,0,16,16,18,,,,,,,,,,,,,,,,,,,,,,,,,,,,,,,,,,,312.3917939,313.3910092,314.873884,315.8741718,313.8737582,314.3743728,m,1.0054081,314.873884,None,santtu,1,2021_Nov_26_1449,project_circles,2021.2.3,59.95674719
3,3_circles_notlined.png,"(0.5, 0.5)",There were 3 circles,Yes,z,Low,No,0,0,0,0,,,,,0,17,17,21,,,,,,,,,,,,,,,,,,,,,,,,,,,,,,,,,,,315.9517144,316.957599,318.4405385,None,317.4411303,317.9419997,z,0.7571942,318.4405385,None,santtu,1,2021_Nov_26_1449,project_circles,2021.2.3,59.95674719
5,5_circles_lined.png,"(0.75, 0.5)",There were 5 circles,Yes,z,Low,Yes,0,0,0,0,,,,,0,18,18,12,,,,,,,,,,,,,,,,,,,,,,,,,,,,,,,,,,,319.3075655,320.3082769,321.8079329,None,320.8083132,321.3083177,z,0.8427326,321.8079329,None,santtu,1,2021_Nov_26_1449,project_circles,2021.2.3,59.95674719
5,5_circles_lined.png,"(0.75, 0.5)",There were 4 circles,No,m,Low,Yes,0,0,0,0,,,,,0,19,19,14,,,,,,,,,,,,,,,,,,,,,,,,,,,,,,,,,,,322.733956,323.7410939,325.2239562,None,324.2243372,324.7252991,m,0.6778404,325.2239562,None,santtu,1,2021_Nov_26_1449,project_circles,2021.2.3,59.95674719
3,3_circles_lined.png,"(0.75, 0.25)",There were 3 circles,Yes,z,Low,Yes,0,0,0,0,,,,,0,20,20,4,,,,,,,,,,,,,,,,,,,,,,,,,,,,,,,,,,,325.9748126,326.9749025,328.4578859,None,327.4575706,327.9575509,z,0.5043717,328.4578859,None,santtu,1,2021_Nov_26_1449,project_circles,2021.2.3,59.95674719
4,4_circles_notlined.png,"(0.6, 0.5)",There were 3 circles,No,m,Low,No,0,0,0,0,,,,,0,21,21,26,,,,,,,,,,,,,,,,,,,,,,,,,,,,,,,,,,,329.0650172,330.073889,331.5580229,None,330.5583434,331.0586345,m,0.6190203,331.5580229,None,santtu,1,2021_Nov_26_1449,project_circles,2021.2.3,59.95674719
2,2_circles_lined.png,"(0.5, 0.25)",There were 2 circles,Yes,z,Low,Yes,0,0,0,0,,,,,0,22,22,1,,,,,,,,,,,,,,,,,,,,,,,,,,,,,,,,,,,332.2443029,333.2583129,334.7402418,None,333.7407128,334.2418522,z,0.6065891,334.7402418,None,santtu,1,2021_Nov_26_1449,project_circles,2021.2.3,59.95674719
3,3_circles_notlined.png,"(0.5, 0.5)",There were 4 circles,No,m,Low,No,0,0,0,0,,,,,0,23,23,23,,,,,,,,,,,,,,,,,,,,,,,,,,,,,,,,,,,335.4208023,336.4240767,337.9070306,None,336.9069439,337.4084201,m,0.563046,337.9070306,None,santtu,1,2021_Nov_26_1449,project_circles,2021.2.3,59.95674719
5,5_circles_notlined.png,"(0.7, 0.5)",There were 5 circles,Yes,z,Low,No,0,0,0,0,,,,,0,24,24,28,,,,,,,,,,,,,,,,,,,,,,,,,,,,,,,,,,,338.5868438,339.5903977,341.0739822,None,340.0747501,340.5736043,z,0.6523892,341.0739822,None,santtu,1,2021_Nov_26_1449,project_circles,2021.2.3,59.95674719
5,5_circles_lined.png,"(0.75, 0.5)",There were 5 circles,Yes,z,Low,Yes,0,0,0,0,,,,,0,25,25,13,,,,,,,,,,,,,,,,,,,,,,,,,,,,,,,,,,,341.8384118,342.8402791,344.3240299,None,343.3237513,343.8237686,z,0.6236554,344.3240299,None,santtu,1,2021_Nov_26_1449,project_circles,2021.2.3,59.95674719
4,4_circles_lined.png,"(0.5, 0.5)",There were 5 circles,No,m,Low,Yes,0,0,0,0,,,,,0,26,26,11,,,,,,,,,,,,,,,,,,,,,,,,,,,,,,,,,,,345.0128873,346.0234425,347.5069523,None,346.5072235,347.0075753,m,0.7996752,347.5069523,None,santtu,1,2021_Nov_26_1449,project_circles,2021.2.3,59.95674719
2,2_circles_notlined.png,"(0.5, 0.5)",There were 2 circles,Yes,z,Low,No,0,0,0,0,,,,,0,27,27,17,,,,,,,,,,,,,,,,,,,,,,,,,,,,,,,,,,,348.3664634,349.3732781,350.8571061,None,349.8568495,350.3569294,z,0.6501024,350.8571061,None,santtu,1,2021_Nov_26_1449,project_circles,2021.2.3,59.95674719
5,5_circles_notlined.png,"(0.7, 0.5)",There were 4 circles,No,m,Low,No,0,0,0,0,,,,,0,28,28,30,,,,,,,,,,,,,,,,,,,,,,,,,,,,,,,,,,,351.6209638,352.6234791,354.1088547,None,353.1066341,353.6069121,m,0.8194965,354.1088547,None,santtu,1,2021_Nov_26_1449,project_circles,2021.2.3,59.95674719
5,5_circles_notlined.png,"(0.7, 0.5)",There were 6 circles,No,m,Low,No,0,0,0,0,,,,,0,29,29,31,,,,,,,,,,,,,,,,,,,,,,,,,,,,,,,,,,,355.0434888,356.0570148,357.5398307,None,356.5399734,357.0403831,m,0.9007853,357.5398307,None,santtu,1,2021_Nov_26_1449,project_circles,2021.2.3,59.95674719
4,4_circles_lined.png,"(0.5, 0.5)",There were 4 circles,Yes,z,Low,Yes,0,0,0,0,,,,,0,30,30,8,,,,,,,,,,,,,,,,,,,,,,,,,,,,,,,,,,,358.5252637,359.5401537,361.0066279,None,360.0070134,360.5066724,z,0.7031009,361.0066279,None,santtu,1,2021_Nov_26_1449,project_circles,2021.2.3,59.95674719
3,3_circles_lined.png,"(0.75, 0.25)",There were 3 circles,Yes,z,Low,Yes,0,0,0,0,,,,,0,31,31,5,,,,,,,,,,,,,,,,,,,,,,,,,,,,,,,,,,,361.7804438,362.7902741,364.2737142,None,363.2745054,363.7745085,z,0.8118354,364.2737142,None,santtu,1,2021_Nov_26_1449,project_circles,2021.2.3,59.95674719
10,10_circles_notlined.png,"(0.5, 0.6)",There were 10 circles,Yes,z,High,No,0,0,0,0,,,,,,,,,0,0,0,28,,,,,,,,,,,,,,,,,,,,,,,,,,,,,,,365.4001256,366.406897,367.8902057,368.8902838,366.889691,367.3902593,m,3.9336694,367.8902057,None,santtu,1,2021_Nov_26_1449,project_circles,2021.2.3,59.95674719
10,10_circles_notlined.png,"(0.5, 0.6)",There were 9 circles,No,m,High,No,0,0,0,0,,,,,,,,,0,1,1,30,,,,,,,,,,,,,,,,,,,,,,,,,,,,,,,371.9572601,372.9734893,374.4562759,375.4567412,373.4567317,373.9576678,m,2.0285134,374.4562759,None,santtu,1,2021_Nov_26_1449,project_circles,2021.2.3,59.95674719
9,9_circles_notlined.png,"(0.5, 0.6)",There were 10 circles,No,m,High,No,0,0,0,0,,,,,,,,,0,2,2,27,,,,,,,,,,,,,,,,,,,,,,,,,,,,,,,376.6507469,377.6562742,379.1400383,None,378.1397689,378.6407607,z,0.7780417,379.1400383,None,santtu,1,2021_Nov_26_1449,project_circles,2021.2.3,59.95674719
7,7_circles_lined.png,"(0.75, 0.35)",There were 7 circles,Yes,z,High,Yes,0,0,0,0,,,,,,,,,0,3,3,1,,,,,,,,,,,,,,,,,,,,,,,,,,,,,,,380.0539016,381.0566566,382.5402217,383.5399183,381.5398972,382.0409817,m,1.2255308,382.5402217,None,santtu,1,2021_Nov_26_1449,project_circles,2021.2.3,59.95674719
7,7_circles_notlined.png,"(0.5, 0.5)",There were 6 circles,No,m,High,No,0,0,0,0,,,,,,,,,0,4,4,18,,,,,,,,,,,,,,,,,,,,,,,,,,,,,,,383.9320394,384.9398333,386.4236425,None,385.4232971,385.9232076,z,0.7083332,386.4236425,None,santtu,1,2021_Nov_26_1449,project_circles,2021.2.3,59.95674719
10,10_circles_lined.png,"(1, 0.4)",There were 9 circles,No,m,High,Yes,0,0,0,0,,,,,,,,,0,5,5,14,,,,,,,,,,,,,,,,,,,,,,,,,,,,,,,387.2786646,388.2898658,389.7736884,None,388.7740728,389.2731955,m,0.7749617,389.7736884,None,santtu,1,2021_Nov_26_1449,project_circles,2021.2.3,59.95674719
8,8_circles_notlined.png,"(0.5, 0.5)",There were 7 circles,No,m,High,No,0,0,0,0,,,,,,,,,0,6,6,22,,,,,,,,,,,,,,,,,,,,,,,,,,,,,,,390.6932157,391.7064256,393.1904291,None,392.1904176,392.689733,z,0.5881932,393.1904291,None,santtu,1,2021_Nov_26_1449,project_circles,2021.2.3,59.95674719
8,8_circles_notlined.png,"(0.5, 0.5)",There were 9 circles,No,m,High,No,0,0,0,0,,,,,,,,,0,7,7,23,,,,,,,,,,,,,,,,,,,,,,,,,,,,,,,393.9421325,394.956327,396.4235039,397.4396977,395.4230612,395.9230589,m,1.0195453,396.4235039,None,santtu,1,2021_Nov_26_1449,project_circles,2021.2.3,59.95674719
10,10_circles_notlined.png,"(0.5, 0.6)",There were 8 circles,No,m,High,No,0,0,0,0,,,,,,,,,0,8,8,31,,,,,,,,,,,,,,,,,,,,,,,,,,,,,,,397.6465189,398.6563032,400.1228636,None,399.1230373,399.623838,z,0.626698,400.1228636,None,santtu,1,2021_Nov_26_1449,project_circles,2021.2.3,59.95674719
9,9_circles_lined.png,"(0.5, 0.5)",There were 10 circles,No,m,High,Yes,0,0,0,0,,,,,,,,,0,9,9,11,,,,,,,,,,,,,,,,,,,,,,,,,,,,,,,400.868857,401.8729374,403.3562732,None,402.3563335,402.8567341,m,0.7667321,403.3562732,None,santtu,1,2021_Nov_26_1449,project_circles,2021.2.3,59.95674719
9,9_circles_lined.png,"(0.5, 0.5)",There were 8 circles,No,m,High,Yes,0,0,0,0,,,,,,,,,0,10,10,10,,,,,,,,,,,,,,,,,,,,,,,,,,,,,,,404.2095361,405.2229281,406.7057652,None,405.7070097,406.2062023,m,0.7131665,406.7057652,None,santtu,1,2021_Nov_26_1449,project_circles,2021.2.3,59.95674719
8,8_circles_lined.png,"(0.75, 0.35)",There were 8 circles,Yes,z,High,Yes,0,0,0,0,,,,,,,,,0,11,11,5,,,,,,,,,,,,,,,,,,,,,,,,,,,,,,,407.5150766,408.5237912,410.0055524,None,409.004808,409.5058402,z,0.4513953,410.0055524,None,santtu,1,2021_Nov_26_1449,project_circles,2021.2.3,59.95674719
8,8_circles_notlined.png,"(0.5, 0.5)",There were 8 circles,Yes,z,High,No,0,0,0,0,,,,,,,,,0,12,12,20,,,,,,,,,,,,,,,,,,,,,,,,,,,,,,,410.6148187,411.6213081,413.1058254,None,412.1057575,412.6053553,m,0.9028355,413.1058254,None,santtu,1,2021_Nov_26_1449,project_circles,2021.2.3,59.95674719
8,8_circles_lined.png,"(0.75, 0.35)",There were 7 circles,No,m,High,Yes,0,0,0,0,,,,,,,,,0,13,13,6,,,,,,,,,,,,,,,,,,,,,,,,,,,,,,,414.1100424,415.1235209,416.6061984,None,415.6068823,416.1068866,m,0.6909025,416.6061984,None,santtu,1,2021_Nov_26_1449,project_circles,2021.2.3,59.95674719
9,9_circles_lined.png,"(0.5, 0.5)",There were 9 circles,Yes,z,High,Yes,0,0,0,0,,,,,,,,,0,14,14,8,,,,,,,,,,,,,,,,,,,,,,,,,,,,,,,417.3970565,418.4069922,419.8893652,None,418.8899598,419.3893251,z,0.4253176,419.8893652,None,santtu,1,2021_Nov_26_1449,project_circles,2021.2.3,59.95674719
7,7_circles_notlined.png,"(0.5, 0.5)",There were 8 circles,No,m,High,No,0,0,0,0,,,,,,,,,0,15,15,19,,,,,,,,,,,,,,,,,,,,,,,,,,,,,,,420.4564692,421.4560291,422.9562152,None,421.9559164,422.4559116,m,0.8421974,422.9562152,None,santtu,1,2021_Nov_26_1449,project_circles,2021.2.3,59.95674719
10,10_circles_lined.png,"(1, 0.4)",There were 10 circles,Yes,z,High,Yes,0,0,0,0,,,,,,,,,0,16,16,13,,,,,,,,,,,,,,,,,,,,,,,,,,,,,,,423.9511229,424.9557561,426.4243267,None,425.4392458,425.9392169,z,0.4790931,426.4243267,None,santtu,1,2021_Nov_26_1449,project_circles,2021.2.3,59.95674719
9,9_circles_notlined.png,"(0.5, 0.6)",There were 9 circles,Yes,z,High,No,0,0,0,0,,,,,,,,,0,17,17,25,,,,,,,,,,,,,,,,,,,,,,,,,,,,,,,427.068403,428.0725016,429.5553484,None,428.5564863,429.0568935,m,0.7367561,429.5553484,None,santtu,1,2021_Nov_26_1449,project_circles,2021.2.3,59.95674719
7,7_circles_lined.png,"(0.75, 0.35)",There were 6 circles,No,m,High,Yes,0,0,0,0,,,,,,,,,0,18,18,2,,,,,,,,,,,,,,,,,,,,,,,,,,,,,,,430.4149253,431.4224333,432.9053835,None,431.905621,432.4058925,m,0.6364085,432.9053835,None,santtu,1,2021_Nov_26_1449,project_circles,2021.2.3,59.95674719
7,7_circles_notlined.png,"(0.5, 0.5)",There were 7 circles,Yes,z,High,No,0,0,0,0,,,,,,,,,0,19,19,17,,,,,,,,,,,,,,,,,,,,,,,,,,,,,,,433.690755,434.6903248,436.189188,None,435.1901001,435.7057371,m,0.7928722,436.189188,None,santtu,1,2021_Nov_26_1449,project_circles,2021.2.3,59.95674719
10,10_circles_lined.png,"(1, 0.4)",There were 8 circles,No,m,High,Yes,0,0,0,0,,,,,,,,,0,20,20,15,,,,,,,,,,,,,,,,,,,,,,,,,,,,,,,437.0786707,438.0897593,439.5723017,None,438.5729087,439.0728746,m,0.7831506,439.5723017,None,santtu,1,2021_Nov_26_1449,project_circles,2021.2.3,59.95674719
9,9_circles_notlined.png,"(0.5, 0.6)",There were 8 circles,No,m,High,No,0,0,0,0,,,,,,,,,0,21,21,26,,,,,,,,,,,,,,,,,,,,,,,,,,,,,,,440.5490466,441.5555788,443.0383628,None,442.0388881,442.5399583,z,0.5830506,443.0383628,None,santtu,1,2021_Nov_26_1449,project_circles,2021.2.3,59.95674719
9,9_circles_lined.png,"(0.5, 0.5)",There were 9 circles,Yes,z,High,Yes,0,0,0,0,,,,,,,,,0,22,22,9,,,,,,,,,,,,,,,,,,,,,,,,,,,,,,,443.7552466,444.7554566,446.2398777,None,445.2395033,445.7398314,z,0.5687948,446.2398777,None,santtu,1,2021_Nov_26_1449,project_circles,2021.2.3,59.95674719
7,7_circles_notlined.png,"(0.5, 0.5)",There were 7 circles,Yes,z,High,No,0,0,0,0,,,,,,,,,0,23,23,16,,,,,,,,,,,,,,,,,,,,,,,,,,,,,,,446.9586008,447.9727372,449.4556303,None,448.4555046,448.9555145,m,0.7427832,449.4556303,None,santtu,1,2021_Nov_26_1449,project_circles,2021.2.3,59.95674719
9,9_circles_notlined.png,"(0.5, 0.6)",There were 9 circles,Yes,z,High,No,0,0,0,0,,,,,,,,,0,24,24,24,,,,,,,,,,,,,,,,,,,,,,,,,,,,,,,450.345513,451.3563859,452.8381705,None,451.8387398,452.3386574,z,0.6831901,452.8381705,None,santtu,1,2021_Nov_26_1449,project_circles,2021.2.3,59.95674719
7,7_circles_lined.png,"(0.75, 0.35)",There were 8 circles,No,m,High,Yes,0,0,0,0,,,,,,,,,0,25,25,3,,,,,,,,,,,,,,,,,,,,,,,,,,,,,,,453.6227142,454.6214004,456.1063443,None,455.1059563,455.6059726,m,0.5026864,456.1063443,None,santtu,1,2021_Nov_26_1449,project_circles,2021.2.3,59.95674719
7,7_circles_lined.png,"(0.75, 0.35)",There were 7 circles,Yes,z,High,Yes,0,0,0,0,,,,,,,,,0,26,26,0,,,,,,,,,,,,,,,,,,,,,,,,,,,,,,,456.7274569,457.7383071,459.2225848,None,458.222465,458.7225501,z,0.6695606,459.2225848,None,santtu,1,2021_Nov_26_1449,project_circles,2021.2.3,59.95674719
10,10_circles_lined.png,"(1, 0.4)",There were 10 circles,Yes,z,High,Yes,0,0,0,0,,,,,,,,,0,27,27,12,,,,,,,,,,,,,,,,,,,,,,,,,,,,,,,459.9862051,460.9883217,462.4714012,None,461.4719277,461.9718296,z,0.5247488,462.4714012,None,santtu,1,2021_Nov_26_1449,project_circles,2021.2.3,59.95674719
10,10_circles_notlined.png,"(0.5, 0.6)",There were 10 circles,Yes,z,High,No,0,0,0,0,,,,,,,,,0,28,28,29,,,,,,,,,,,,,,,,,,,,,,,,,,,,,,,463.1895968,464.1890252,465.6880865,None,464.6884638,465.1895863,z,0.7963006,465.6880865,None,santtu,1,2021_Nov_26_1449,project_circles,2021.2.3,59.95674719
8,8_circles_lined.png,"(0.75, 0.35)",There were 9 circles,No,m,High,Yes,0,0,0,0,,,,,,,,,0,29,29,7,,,,,,,,,,,,,,,,,,,,,,,,,,,,,,,466.6061407,467.6218601,469.0886956,None,468.105072,468.6051252,m,0.7504491,469.0886956,None,santtu,1,2021_Nov_26_1449,project_circles,2021.2.3,59.95674719
8,8_circles_notlined.png,"(0.5, 0.5)",There were 8 circles,Yes,z,High,No,0,0,0,0,,,,,,,,,0,30,30,21,,,,,,,,,,,,,,,,,,,,,,,,,,,,,,,469.9692364,470.9718064,472.455618,None,471.4551365,471.9558818,z,0.7382636,472.455618,None,santtu,1,2021_Nov_26_1449,project_circles,2021.2.3,59.95674719
8,8_circles_lined.png,"(0.75, 0.35)",There were 8 circles,Yes,z,High,Yes,0,0,0,0,,,,,,,,,0,31,31,4,,,,,,,,,,,,,,,,,,,,,,,,,,,,,,,473.2919108,474.3050451,475.787823,None,474.7889793,475.2883444,z,0.4838237,475.787823,None,santtu,1,2021_Nov_26_1449,project_circles,2021.2.3,59.95674719
