circle_amount,file_name,size,prompt,correct_answer,correct_key_resp,condition_size,condition_lined,practice_section.thisRepN,practice_section.thisTrialN,practice_section.thisN,practice_section.thisIndex,practice_trials.thisRepN,practice_trials.thisTrialN,practice_trials.thisN,practice_trials.thisIndex,trials_low.thisRepN,trials_low.thisTrialN,trials_low.thisN,trials_low.thisIndex,trials_high.thisRepN,trials_high.thisTrialN,trials_high.thisN,trials_high.thisIndex,image_2.started,image_2.stopped,key_resp_4.keys,key_resp_4.rt,key_resp_4.started,key_resp_4.stopped,cross_2.started,cross_2.stopped,practice_low.started,practice_low.stopped,text_2.started,text_2.stopped,key_resp_2.keys,key_resp_2.rt,key_resp_2.started,key_resp_2.stopped,yes_no_prac.started,yes_no_prac.stopped,text_3.started,text_3.stopped,text_4.started,text_4.stopped,key_resp_3.keys,key_resp_3.rt,key_resp_3.started,key_resp_3.stopped,text_5.started,text_5.stopped,text_6.started,text_6.stopped,cross.started,cross.stopped,text.started,text.stopped,image.started,image.stopped,key_resp.keys,key_resp.rt,key_resp.started,key_resp.stopped,participant,session,date,expName,psychopyVersion,frameRate
,,,,,,,,,,,,,,,,,,,,,,,,28.2429706,None,z,50.4955692,28.2429706,None,,,,,,,,,,,,,,,,,,,,,,,,,,,,,,,,,,,2,1,2021_Dec_07_1347,project_circles,2021.2.3,60.02101938
4,4_circles_lined.png,"(0.5, 0.5)",There were 4 circles,Yes,z,,,0,0,0,0,0,0,0,4,,,,,,,,,,,,,,,78.9404588,79.9558534,80.4227969,81.4228318,81.9299573,82.9395109,z,1.3579529,81.9299573,None,81.9299573,None,83.3434846,None,,,,,,,,,,,,,,,,,,,,,2,1,2021_Dec_07_1347,project_circles,2021.2.3,60.02101938
2,2_circles_lined.png,"(0.5, 0.25)",There were 2 circles,Yes,z,,,0,0,0,0,0,1,1,0,,,,,,,,,,,,,,,84.3863156,85.3890535,85.8722181,86.8726562,87.3795479,None,z,0.4927301,87.3795479,None,87.3795479,None,87.907526,None,,,,,,,,,,,,,,,,,,,,,2,1,2021_Dec_07_1347,project_circles,2021.2.3,60.02101938
3,3_circles_notlined.png,"(0.5, 0.5)",There were 4 circles,No,m,,,0,0,0,0,0,2,2,3,,,,,,,,,,,,,,,88.9832649,89.9889784,90.4725435,91.4732191,91.9810133,None,m,0.6223359,91.9810133,None,91.9810133,None,92.6358842,None,,,,,,,,,,,,,,,,,,,,,2,1,2021_Dec_07_1347,project_circles,2021.2.3,60.02101938
3,3_circles_notlined.png,"(0.5, 0.5)",There were 3 circles,Yes,z,,,0,0,0,0,0,3,3,2,,,,,,,,,,,,,,,93.6930435,94.7052319,95.1898982,96.1895351,96.6977615,None,z,0.3912543,96.6977615,None,96.6977615,None,97.1236473,None,,,,,,,,,,,,,,,,,,,,,2,1,2021_Dec_07_1347,project_circles,2021.2.3,60.02101938
4,4_circles_lined.png,"(0.5, 0.5)",There were 5 circles,No,m,,,0,0,0,0,0,4,4,5,,,,,,,,,,,,,,,98.2190766,99.2212056,99.7057629,100.7053866,101.2114815,None,m,0.4935095,101.2114815,None,101.2114815,None,101.7371975,None,,,,,,,,,,,,,,,,,,,,,2,1,2021_Dec_07_1347,project_circles,2021.2.3,60.02101938
2,2_circles_lined.png,"(0.5, 0.25)",There were 3 circles,No,m,,,0,0,0,0,0,5,5,1,,,,,,,,,,,,,,,102.7773164,103.7886321,104.2732258,105.2722048,105.7801053,None,m,0.4474185,105.7801053,None,105.7801053,None,106.2680754,None,,,,,,,,,,,,,,,,,,,,,2,1,2021_Dec_07_1347,project_circles,2021.2.3,60.02101938
4,4_circles_notlined.png,"(0.6, 0.5)",There were 3 circles,No,m,Low,No,0,0,0,0,,,,,0,0,0,26,,,,,,,,,,,,,,,,,,,,,,,,,107.4133011,None,z,3.2708732,107.4133011,None,110.74202,None,110.74202,None,112.4858355,113.4885912,114.9799496,None,113.988464,114.4883599,m,0.5849497,114.9799496,None,2,1,2021_Dec_07_1347,project_circles,2021.2.3,60.02101938
5,5_circles_notlined.png,"(0.7, 0.5)",There were 4 circles,No,m,Low,No,0,0,0,0,,,,,0,1,1,30,,,,,,,,,,,,,,,,,,,,,,,,,,,,,,,,,,,115.7472487,116.7549427,118.2407335,None,117.2386859,117.7389937,m,0.4419747,118.2407335,None,2,1,2021_Dec_07_1347,project_circles,2021.2.3,60.02101938
4,4_circles_notlined.png,"(0.6, 0.5)",There were 4 circles,Yes,z,Low,No,0,0,0,0,,,,,0,2,2,24,,,,,,,,,,,,,,,,,,,,,,,,,,,,,,,,,,,118.773436,119.7872888,121.2551716,None,120.2550593,120.7558906,z,0.3453309,121.2551716,None,2,1,2021_Dec_07_1347,project_circles,2021.2.3,60.02101938
4,4_circles_lined.png,"(0.5, 0.5)",There were 4 circles,Yes,z,Low,Yes,0,0,0,0,,,,,0,3,3,8,,,,,,,,,,,,,,,,,,,,,,,,,,,,,,,,,,,121.6794949,122.6877366,124.1726548,None,123.1715047,123.671748,z,0.3482633,124.1726548,None,2,1,2021_Dec_07_1347,project_circles,2021.2.3,60.02101938
2,2_circles_lined.png,"(0.5, 0.25)",There were 4 circles,No,m,Low,Yes,0,0,0,0,,,,,0,4,4,2,,,,,,,,,,,,,,,,,,,,,,,,,,,,,,,,,,,124.5650273,125.5718086,127.0551321,None,126.0551769,126.5551898,m,0.3983309,127.0551321,None,2,1,2021_Dec_07_1347,project_circles,2021.2.3,60.02101938
5,5_circles_lined.png,"(0.75, 0.5)",There were 5 circles,Yes,z,Low,Yes,0,0,0,0,,,,,0,5,5,12,,,,,,,,,,,,,,,,,,,,,,,,,,,,,,,,,,,127.5655272,128.570607,130.0518622,None,129.0537023,129.5687118,z,0.377274,130.0518622,None,2,1,2021_Dec_07_1347,project_circles,2021.2.3,60.02101938
4,4_circles_notlined.png,"(0.6, 0.5)",There were 4 circles,Yes,z,Low,No,0,0,0,0,,,,,0,6,6,25,,,,,,,,,,,,,,,,,,,,,,,,,,,,,,,,,,,130.5243217,131.5272537,133.0255764,None,132.0215977,132.521854,z,0.3336756,133.0255764,None,2,1,2021_Dec_07_1347,project_circles,2021.2.3,60.02101938
2,2_circles_notlined.png,"(0.5, 0.5)",There were 4 circles,No,m,Low,No,0,0,0,0,,,,,0,7,7,18,,,,,,,,,,,,,,,,,,,,,,,,,,,,,,,,,,,133.4327834,134.4382347,135.9211866,None,134.9213119,135.4210031,m,0.3416291,135.9211866,None,2,1,2021_Dec_07_1347,project_circles,2021.2.3,60.02101938
3,3_circles_notlined.png,"(0.5, 0.5)",There were 3 circles,Yes,z,Low,No,0,0,0,0,,,,,0,8,8,21,,,,,,,,,,,,,,,,,,,,,,,,,,,,,,,,,,,136.3481962,137.35376,138.8393261,None,137.8383039,138.3388151,z,0.3504013,138.8393261,None,2,1,2021_Dec_07_1347,project_circles,2021.2.3,60.02101938
4,4_circles_lined.png,"(0.5, 0.5)",There were 5 circles,No,m,Low,Yes,0,0,0,0,,,,,0,9,9,11,,,,,,,,,,,,,,,,,,,,,,,,,,,,,,,,,,,139.2915827,140.3034306,141.7721553,142.7711134,140.7712575,141.2721458,m,1.1222101,141.7721553,None,2,1,2021_Dec_07_1347,project_circles,2021.2.3,60.02101938
2,2_circles_notlined.png,"(0.5, 0.5)",There were 2 circles,Yes,z,Low,No,0,0,0,0,,,,,0,10,10,17,,,,,,,,,,,,,,,,,,,,,,,,,,,,,,,,,,,142.9791449,143.9886488,145.4731457,None,144.4723384,144.9716994,z,0.3440228,145.4731457,None,2,1,2021_Dec_07_1347,project_circles,2021.2.3,60.02101938
2,2_circles_lined.png,"(0.5, 0.25)",There were 3 circles,No,m,Low,Yes,0,0,0,0,,,,,0,11,11,3,,,,,,,,,,,,,,,,,,,,,,,,,,,,,,,,,,,145.8866469,146.8879032,148.3732152,None,147.3733411,147.8883093,m,0.3773935,148.3732152,None,2,1,2021_Dec_07_1347,project_circles,2021.2.3,60.02101938
3,3_circles_lined.png,"(0.75, 0.25)",There were 3 circles,Yes,z,Low,Yes,0,0,0,0,,,,,0,12,12,4,,,,,,,,,,,,,,,,,,,,,,,,,,,,,,,,,,,148.8139479,149.821075,151.305759,None,150.3056372,150.8219262,z,0.3242976,151.305759,None,2,1,2021_Dec_07_1347,project_circles,2021.2.3,60.02101938
5,5_circles_lined.png,"(0.75, 0.5)",There were 4 circles,No,m,Low,Yes,0,0,0,0,,,,,0,13,13,14,,,,,,,,,,,,,,,,,,,,,,,,,,,,,,,,,,,151.7557564,152.7700569,154.2405781,None,153.2363732,153.7392692,m,0.3368528,154.2405781,None,2,1,2021_Dec_07_1347,project_circles,2021.2.3,60.02101938
3,3_circles_lined.png,"(0.75, 0.25)",There were 4 circles,No,m,Low,Yes,0,0,0,0,,,,,0,14,14,7,,,,,,,,,,,,,,,,,,,,,,,,,,,,,,,,,,,154.6382907,155.6379422,157.121127,None,156.1223933,156.6397037,m,0.5173536,157.121127,None,2,1,2021_Dec_07_1347,project_circles,2021.2.3,60.02101938
3,3_circles_lined.png,"(0.75, 0.25)",There were 2 circles,No,m,Low,Yes,0,0,0,0,,,,,0,15,15,6,,,,,,,,,,,,,,,,,,,,,,,,,,,,,,,,,,,157.709879,158.7208328,160.1894114,None,159.1876547,159.6879704,m,0.3776393,160.1894114,None,2,1,2021_Dec_07_1347,project_circles,2021.2.3,60.02101938
5,5_circles_notlined.png,"(0.7, 0.5)",There were 6 circles,No,m,Low,No,0,0,0,0,,,,,0,16,16,31,,,,,,,,,,,,,,,,,,,,,,,,,,,,,,,,,,,160.7001346,161.7042515,163.1887054,None,162.1874611,162.6876166,m,0.3530265,163.1887054,None,2,1,2021_Dec_07_1347,project_circles,2021.2.3,60.02101938
2,2_circles_notlined.png,"(0.5, 0.5)",There were 2 circles,Yes,z,Low,No,0,0,0,0,,,,,0,17,17,16,,,,,,,,,,,,,,,,,,,,,,,,,,,,,,,,,,,163.6401985,164.654103,166.1252581,None,165.1211764,165.6212874,z,0.3761625,166.1252581,None,2,1,2021_Dec_07_1347,project_circles,2021.2.3,60.02101938
4,4_circles_lined.png,"(0.5, 0.5)",There were 4 circles,Yes,z,Low,Yes,0,0,0,0,,,,,0,18,18,9,,,,,,,,,,,,,,,,,,,,,,,,,,,,,,,,,,,166.5971337,167.6031983,169.0879984,None,168.0883978,168.5877244,z,0.3415999,169.0879984,None,2,1,2021_Dec_07_1347,project_circles,2021.2.3,60.02101938
3,3_circles_lined.png,"(0.75, 0.25)",There were 3 circles,Yes,z,Low,Yes,0,0,0,0,,,,,0,19,19,5,,,,,,,,,,,,,,,,,,,,,,,,,,,,,,,,,,,169.5094326,170.5201058,172.0050426,None,170.9877718,171.487499,z,0.3228817,172.0050426,None,2,1,2021_Dec_07_1347,project_circles,2021.2.3,60.02101938
2,2_circles_lined.png,"(0.5, 0.25)",There were 2 circles,Yes,z,Low,Yes,0,0,0,0,,,,,0,20,20,1,,,,,,,,,,,,,,,,,,,,,,,,,,,,,,,,,,,172.4015139,173.4038205,174.9071556,None,173.9045001,174.4040073,z,0.4330054,174.9071556,None,2,1,2021_Dec_07_1347,project_circles,2021.2.3,60.02101938
3,3_circles_notlined.png,"(0.5, 0.5)",There were 2 circles,No,m,Low,No,0,0,0,0,,,,,0,21,21,22,,,,,,,,,,,,,,,,,,,,,,,,,,,,,,,,,,,175.4087888,176.4193603,177.9024073,None,176.9030067,177.4031864,m,0.3873596,177.9024073,None,2,1,2021_Dec_07_1347,project_circles,2021.2.3,60.02101938
3,3_circles_notlined.png,"(0.5, 0.5)",There were 4 circles,No,m,Low,No,0,0,0,0,,,,,0,22,22,23,,,,,,,,,,,,,,,,,,,,,,,,,,,,,,,,,,,178.3591602,179.3703645,180.8548916,None,179.8538458,180.3539623,m,0.3548084,180.8548916,None,2,1,2021_Dec_07_1347,project_circles,2021.2.3,60.02101938
2,2_circles_lined.png,"(0.5, 0.25)",There were 2 circles,Yes,z,Low,Yes,0,0,0,0,,,,,0,23,23,0,,,,,,,,,,,,,,,,,,,,,,,,,,,,,,,,,,,181.2851276,182.2873827,183.7752461,None,182.7703416,183.2705474,z,0.3063283,183.7752461,None,2,1,2021_Dec_07_1347,project_circles,2021.2.3,60.02101938
4,4_circles_lined.png,"(0.5, 0.5)",There were 3 circles,No,m,Low,Yes,0,0,0,0,,,,,0,24,24,10,,,,,,,,,,,,,,,,,,,,,,,,,,,,,,,,,,,184.18472,185.1861815,186.6724834,None,185.6708127,186.1709634,m,0.3302117,186.6724834,None,2,1,2021_Dec_07_1347,project_circles,2021.2.3,60.02101938
3,3_circles_notlined.png,"(0.5, 0.5)",There were 3 circles,Yes,z,Low,No,0,0,0,0,,,,,0,25,25,20,,,,,,,,,,,,,,,,,,,,,,,,,,,,,,,,,,,187.0636526,188.0715448,189.553411,None,188.5537665,189.0533603,z,0.3322808,189.553411,None,2,1,2021_Dec_07_1347,project_circles,2021.2.3,60.02101938
2,2_circles_notlined.png,"(0.5, 0.5)",There were 3 circles,No,m,Low,No,0,0,0,0,,,,,0,26,26,19,,,,,,,,,,,,,,,,,,,,,,,,,,,,,,,,,,,189.9420699,190.9538418,192.4199481,None,191.4203348,191.920774,m,0.3290446,192.4199481,None,2,1,2021_Dec_07_1347,project_circles,2021.2.3,60.02101938
5,5_circles_lined.png,"(0.75, 0.5)",There were 5 circles,Yes,z,Low,Yes,0,0,0,0,,,,,0,27,27,13,,,,,,,,,,,,,,,,,,,,,,,,,,,,,,,,,,,192.8484174,193.8533098,195.3391408,None,194.3371281,194.8370723,z,0.2890828,195.3391408,None,2,1,2021_Dec_07_1347,project_circles,2021.2.3,60.02101938
5,5_circles_notlined.png,"(0.7, 0.5)",There were 5 circles,Yes,z,Low,No,0,0,0,0,,,,,0,28,28,29,,,,,,,,,,,,,,,,,,,,,,,,,,,,,,,,,,,195.7935953,196.8026676,198.286747,None,197.2876034,197.7872282,z,0.3228823,198.286747,None,2,1,2021_Dec_07_1347,project_circles,2021.2.3,60.02101938
5,5_circles_notlined.png,"(0.7, 0.5)",There were 5 circles,Yes,z,Low,No,0,0,0,0,,,,,0,29,29,28,,,,,,,,,,,,,,,,,,,,,,,,,,,,,,,,,,,198.7451977,199.753366,201.2385347,None,200.2371429,200.7369139,m,0.2854442,201.2385347,None,2,1,2021_Dec_07_1347,project_circles,2021.2.3,60.02101938
4,4_circles_notlined.png,"(0.6, 0.5)",There were 5 circles,No,m,Low,No,0,0,0,0,,,,,0,30,30,27,,,,,,,,,,,,,,,,,,,,,,,,,,,,,,,,,,,201.6200796,202.6201877,204.1041649,None,203.1038131,203.6034754,m,0.3655972,204.1041649,None,2,1,2021_Dec_07_1347,project_circles,2021.2.3,60.02101938
5,5_circles_lined.png,"(0.75, 0.5)",There were 6 circles,No,m,Low,Yes,0,0,0,0,,,,,0,31,31,15,,,,,,,,,,,,,,,,,,,,,,,,,,,,,,,,,,,204.5531718,205.5536675,207.0391927,None,206.0371591,206.5369013,m,0.4839381,207.0391927,None,2,1,2021_Dec_07_1347,project_circles,2021.2.3,60.02101938
10,10_circles_lined.png,"(1, 0.4)",There were 8 circles,No,m,High,Yes,0,0,0,0,,,,,,,,,0,0,0,15,,,,,,,,,,,,,,,,,,,,,,,,,,,,,,,207.7380297,208.7533989,210.2233052,None,209.2202883,209.7200673,m,0.3651403,210.2233052,None,2,1,2021_Dec_07_1347,project_circles,2021.2.3,60.02101938
10,10_circles_lined.png,"(1, 0.4)",There were 9 circles,No,m,High,Yes,0,0,0,0,,,,,,,,,0,1,1,14,,,,,,,,,,,,,,,,,,,,,,,,,,,,,,,210.7051493,211.7194812,213.2047793,None,212.2028761,212.7034957,m,0.3739385,213.2047793,None,2,1,2021_Dec_07_1347,project_circles,2021.2.3,60.02101938
7,7_circles_notlined.png,"(0.5, 0.5)",There were 6 circles,No,m,High,No,0,0,0,0,,,,,,,,,0,2,2,18,,,,,,,,,,,,,,,,,,,,,,,,,,,,,,,213.8455113,214.8530493,216.3388438,None,215.3368829,215.8360561,z,0.7306141,216.3388438,None,2,1,2021_Dec_07_1347,project_circles,2021.2.3,60.02101938
10,10_circles_lined.png,"(1, 0.4)",There were 10 circles,Yes,z,High,Yes,0,0,0,0,,,,,,,,,0,3,3,12,,,,,,,,,,,,,,,,,,,,,,,,,,,,,,,217.1688194,218.1691997,219.6543341,None,218.6531164,219.1529636,z,0.3944992,219.6543341,None,2,1,2021_Dec_07_1347,project_circles,2021.2.3,60.02101938
7,7_circles_lined.png,"(0.75, 0.35)",There were 8 circles,No,m,High,Yes,0,0,0,0,,,,,,,,,0,4,4,3,,,,,,,,,,,,,,,,,,,,,,,,,,,,,,,220.1715423,221.1866379,222.672148,None,221.6701269,222.1697477,m,0.4224582,222.672148,None,2,1,2021_Dec_07_1347,project_circles,2021.2.3,60.02101938
9,9_circles_lined.png,"(0.5, 0.5)",There were 9 circles,Yes,z,High,Yes,0,0,0,0,,,,,,,,,0,5,5,8,,,,,,,,,,,,,,,,,,,,,,,,,,,,,,,223.208513,224.2198528,225.705176,None,224.7031126,225.2034926,z,0.3536889,225.705176,None,2,1,2021_Dec_07_1347,project_circles,2021.2.3,60.02101938
9,9_circles_notlined.png,"(0.5, 0.6)",There were 8 circles,No,m,High,No,0,0,0,0,,,,,,,,,0,6,6,26,,,,,,,,,,,,,,,,,,,,,,,,,,,,,,,226.2228555,227.2364797,228.7219344,None,227.7207676,228.2211999,m,0.4129283,228.7219344,None,2,1,2021_Dec_07_1347,project_circles,2021.2.3,60.02101938
7,7_circles_notlined.png,"(0.5, 0.5)",There were 8 circles,No,m,High,No,0,0,0,0,,,,,,,,,0,7,7,19,,,,,,,,,,,,,,,,,,,,,,,,,,,,,,,229.3301044,230.3363077,231.8192753,None,230.8194585,231.3200092,m,0.4291988,231.8192753,None,2,1,2021_Dec_07_1347,project_circles,2021.2.3,60.02101938
7,7_circles_lined.png,"(0.75, 0.35)",There were 7 circles,Yes,z,High,Yes,0,0,0,0,,,,,,,,,0,8,8,1,,,,,,,,,,,,,,,,,,,,,,,,,,,,,,,232.3544006,233.3691543,234.8550721,None,233.8528111,234.3537233,z,0.3898105,234.8550721,None,2,1,2021_Dec_07_1347,project_circles,2021.2.3,60.02101938
10,10_circles_lined.png,"(1, 0.4)",There were 10 circles,Yes,z,High,Yes,0,0,0,0,,,,,,,,,0,9,9,13,,,,,,,,,,,,,,,,,,,,,,,,,,,,,,,235.3547396,236.3698511,237.8398361,None,236.8357853,237.3367066,z,0.3043188,237.8398361,None,2,1,2021_Dec_07_1347,project_circles,2021.2.3,60.02101938
9,9_circles_notlined.png,"(0.5, 0.6)",There were 10 circles,No,m,High,No,0,0,0,0,,,,,,,,,0,10,10,27,,,,,,,,,,,,,,,,,,,,,,,,,,,,,,,238.2513871,239.2528262,240.7519317,None,239.7530098,240.2527627,z,0.3568096,240.7519317,None,2,1,2021_Dec_07_1347,project_circles,2021.2.3,60.02101938
10,10_circles_notlined.png,"(0.5, 0.6)",There were 9 circles,No,m,High,No,0,0,0,0,,,,,,,,,0,11,11,30,,,,,,,,,,,,,,,,,,,,,,,,,,,,,,,241.3368031,242.3521664,243.8387988,None,242.8358665,243.3360218,m,0.3418365,243.8387988,None,2,1,2021_Dec_07_1347,project_circles,2021.2.3,60.02101938
7,7_circles_lined.png,"(0.75, 0.35)",There were 6 circles,No,m,High,Yes,0,0,0,0,,,,,,,,,0,12,12,2,,,,,,,,,,,,,,,,,,,,,,,,,,,,,,,244.2991927,245.3025364,246.7912986,None,245.7862943,246.2867221,m,0.3429171,246.7912986,None,2,1,2021_Dec_07_1347,project_circles,2021.2.3,60.02101938
8,8_circles_notlined.png,"(0.5, 0.5)",There were 8 circles,Yes,z,High,No,0,0,0,0,,,,,,,,,0,13,13,21,,,,,,,,,,,,,,,,,,,,,,,,,,,,,,,247.2599933,248.2692972,249.7537516,None,248.7529378,249.2534045,z,0.3720386,249.7537516,None,2,1,2021_Dec_07_1347,project_circles,2021.2.3,60.02101938
10,10_circles_notlined.png,"(0.5, 0.6)",There were 8 circles,No,m,High,No,0,0,0,0,,,,,,,,,0,14,14,31,,,,,,,,,,,,,,,,,,,,,,,,,,,,,,,250.3123409,251.3183641,252.8035952,None,251.8028392,252.3042107,m,0.3344465,252.8035952,None,2,1,2021_Dec_07_1347,project_circles,2021.2.3,60.02101938
9,9_circles_lined.png,"(0.5, 0.5)",There were 10 circles,No,m,High,Yes,0,0,0,0,,,,,,,,,0,15,15,11,,,,,,,,,,,,,,,,,,,,,,,,,,,,,,,253.2889731,254.3024449,255.7694427,None,254.7692074,255.2692494,m,0.3521907,255.7694427,None,2,1,2021_Dec_07_1347,project_circles,2021.2.3,60.02101938
7,7_circles_notlined.png,"(0.5, 0.5)",There were 7 circles,Yes,z,High,No,0,0,0,0,,,,,,,,,0,16,16,16,,,,,,,,,,,,,,,,,,,,,,,,,,,,,,,256.2674248,257.2691904,258.7553015,None,257.7522268,258.2527915,z,0.384277,258.7553015,None,2,1,2021_Dec_07_1347,project_circles,2021.2.3,60.02101938
10,10_circles_notlined.png,"(0.5, 0.6)",There were 10 circles,Yes,z,High,No,0,0,0,0,,,,,,,,,0,17,17,29,,,,,,,,,,,,,,,,,,,,,,,,,,,,,,,259.319264,260.3188329,261.8052695,None,260.8030483,261.3024839,z,0.4051986,261.8052695,None,2,1,2021_Dec_07_1347,project_circles,2021.2.3,60.02101938
8,8_circles_lined.png,"(0.75, 0.35)",There were 8 circles,Yes,z,High,Yes,0,0,0,0,,,,,,,,,0,18,18,4,,,,,,,,,,,,,,,,,,,,,,,,,,,,,,,262.351402,263.3519928,264.8382041,None,263.8354346,264.3355933,z,0.3177336,264.8382041,None,2,1,2021_Dec_07_1347,project_circles,2021.2.3,60.02101938
9,9_circles_lined.png,"(0.5, 0.5)",There were 8 circles,No,m,High,Yes,0,0,0,0,,,,,,,,,0,19,19,10,,,,,,,,,,,,,,,,,,,,,,,,,,,,,,,265.2804646,266.2850375,267.7683274,None,266.7691844,267.2693803,m,0.3562633,267.7683274,None,2,1,2021_Dec_07_1347,project_circles,2021.2.3,60.02101938
8,8_circles_lined.png,"(0.75, 0.35)",There were 7 circles,No,m,High,Yes,0,0,0,0,,,,,,,,,0,20,20,6,,,,,,,,,,,,,,,,,,,,,,,,,,,,,,,268.2286043,269.2350613,270.7208274,None,269.7024921,270.2030885,m,0.3996233,270.7208274,None,2,1,2021_Dec_07_1347,project_circles,2021.2.3,60.02101938
7,7_circles_notlined.png,"(0.5, 0.5)",There were 7 circles,Yes,z,High,No,0,0,0,0,,,,,,,,,0,21,21,17,,,,,,,,,,,,,,,,,,,,,,,,,,,,,,,271.2904885,272.3020156,273.7694237,None,272.7687338,273.2688094,z,0.3343378,273.7694237,None,2,1,2021_Dec_07_1347,project_circles,2021.2.3,60.02101938
8,8_circles_lined.png,"(0.75, 0.35)",There were 9 circles,No,m,High,Yes,0,0,0,0,,,,,,,,,0,22,22,7,,,,,,,,,,,,,,,,,,,,,,,,,,,,,,,274.2225596,275.2343297,276.7039995,None,275.7019275,276.2027448,m,0.3641649,276.7039995,None,2,1,2021_Dec_07_1347,project_circles,2021.2.3,60.02101938
9,9_circles_lined.png,"(0.5, 0.5)",There were 9 circles,Yes,z,High,Yes,0,0,0,0,,,,,,,,,0,23,23,9,,,,,,,,,,,,,,,,,,,,,,,,,,,,,,,277.1973793,278.2018917,279.685205,None,278.6856276,279.185313,z,0.3579551,279.685205,None,2,1,2021_Dec_07_1347,project_circles,2021.2.3,60.02101938
8,8_circles_lined.png,"(0.75, 0.35)",There were 8 circles,Yes,z,High,Yes,0,0,0,0,,,,,,,,,0,24,24,5,,,,,,,,,,,,,,,,,,,,,,,,,,,,,,,280.1707522,281.1845924,282.6515037,None,281.6518238,282.152661,z,0.2735816,282.6515037,None,2,1,2021_Dec_07_1347,project_circles,2021.2.3,60.02101938
8,8_circles_notlined.png,"(0.5, 0.5)",There were 8 circles,Yes,z,High,No,0,0,0,0,,,,,,,,,0,25,25,20,,,,,,,,,,,,,,,,,,,,,,,,,,,,,,,283.0691704,284.0852728,285.550854,None,284.5520208,285.0519021,z,0.3399166,285.550854,None,2,1,2021_Dec_07_1347,project_circles,2021.2.3,60.02101938
8,8_circles_notlined.png,"(0.5, 0.5)",There were 9 circles,No,m,High,No,0,0,0,0,,,,,,,,,0,26,26,23,,,,,,,,,,,,,,,,,,,,,,,,,,,,,,,286.0119644,287.0186479,288.5045204,None,287.5019354,288.0031902,m,0.3690181,288.5045204,None,2,1,2021_Dec_07_1347,project_circles,2021.2.3,60.02101938
9,9_circles_notlined.png,"(0.5, 0.6)",There were 9 circles,Yes,z,High,No,0,0,0,0,,,,,,,,,0,27,27,25,,,,,,,,,,,,,,,,,,,,,,,,,,,,,,,289.0653179,290.0690673,291.5527834,None,290.5525432,291.05131,z,0.374002,291.5527834,None,2,1,2021_Dec_07_1347,project_circles,2021.2.3,60.02101938
9,9_circles_notlined.png,"(0.5, 0.6)",There were 9 circles,Yes,z,High,No,0,0,0,0,,,,,,,,,0,28,28,24,,,,,,,,,,,,,,,,,,,,,,,,,,,,,,,292.0800093,293.0856141,294.5695871,None,293.5689576,294.0687235,z,0.5320371,294.5695871,None,2,1,2021_Dec_07_1347,project_circles,2021.2.3,60.02101938
8,8_circles_notlined.png,"(0.5, 0.5)",There were 7 circles,No,m,High,No,0,0,0,0,,,,,,,,,0,29,29,22,,,,,,,,,,,,,,,,,,,,,,,,,,,,,,,295.2331875,296.2348734,297.7221168,None,296.71856,297.2192393,m,0.3540451,297.7221168,None,2,1,2021_Dec_07_1347,project_circles,2021.2.3,60.02101938
7,7_circles_lined.png,"(0.75, 0.35)",There were 7 circles,Yes,z,High,Yes,0,0,0,0,,,,,,,,,0,30,30,0,,,,,,,,,,,,,,,,,,,,,,,,,,,,,,,298.1995214,299.2015985,300.6852846,None,299.6850503,300.1857029,z,0.3179643,300.6852846,None,2,1,2021_Dec_07_1347,project_circles,2021.2.3,60.02101938
10,10_circles_notlined.png,"(0.5, 0.6)",There were 10 circles,Yes,z,High,No,0,0,0,0,,,,,,,,,0,31,31,28,,,,,,,,,,,,,,,,,,,,,,,,,,,,,,,301.2393056,302.2516898,303.7371237,None,302.7347613,303.2349679,z,0.3092969,303.7371237,None,2,1,2021_Dec_07_1347,project_circles,2021.2.3,60.02101938
